retentionslot_timestamp,milliseconds,sample_index,description,breathphase,participant_id,trial_number,trial_type,stimulus_type,soa_value_ms,jitter_ms,is_tactile,looming_stimulus_timestamp,tactile_stimulus_timestamp,soa_ms,jittered_ms,expected_response,marker_type,tactile_time_seconds,audio_start_time,reaction_time,response_time,responded,response_x,response_y,experiment_end_time,hit_rate,hit_count,false_alarm_rate,false_alarm_count,mean_reaction_time,median_reaction_time,min_reaction_time,max_reaction_time
00:31.9,31950.0,1533600.0,,inhale,0.0,1,practice,,,200.0,False,,,,32150.0,False,1.0,,2025-03-31T03:53:05.437712,,,False,,,,,,,,,,,
00:39.9,39930.0,1916640.0,,exhale,0.0,2,practice,,,300.0,False,,,,40230.0,False,2.0,,2025-03-31T03:53:05.437712,,,False,,,,,,,,,,,
00:48.0,48000.0,2304000.0,,inhale,0.0,3,practice,,,200.0,False,,,,48200.0,False,1.0,,2025-03-31T03:53:05.437712,,,False,,,,,,,,,,,
00:56.0,55950.0,2685600.0,,exhale,0.0,4,practice,,,400.0,False,,,,56350.0,False,2.0,,2025-03-31T03:53:05.437712,,,False,,,,,,,,,,,
01:4.0,64019.0,3072912.0,,inhale,0.0,5,practice,,,500.0,False,,,,64519.0,False,1.0,,2025-03-31T03:53:05.437712,,,False,,,,,,,,,,,
01:12.0,72000.0,3456000.0,,exhale,0.0,6,practice,,,400.0,False,,,,72400.0,False,2.0,,2025-03-31T03:53:05.437712,,,False,,,,,,,,,,,
01:20.1,80069.0,3843359.0,,inhale,0.0,7,practice,,,500.0,False,,,,80569.0,False,1.0,,2025-03-31T03:53:05.437712,,,False,,,,,,,,,,,
01:28.0,88020.0,4224960.0,,exhale,0.0,8,practice,,,100.0,False,,,,88120.0,False,2.0,,2025-03-31T03:53:05.437712,,,False,,,,,,,,,,,
01:36.1,96090.0,4612320.0,,inhale,0.0,9,baseline,,1000.0,500.0,True,,01:37.6,97590.0,96590.0,True,1.0,97.6,2025-03-31T03:53:05.437712,,,False,,,,,,,,,,,
01:44.1,104070.0,4995360.0,,exhale,0.0,10,exhalation,pink,700.0,200.0,True,01:44.3,01:45.0,104970.0,104270.0,True,2.0,105.0,2025-03-31T03:53:05.437712,1.042169800028205,106.0421698000282,True,526,37,,,,,,,,,
01:52.1,112140.0,5382720.0,,inhale,0.0,11,baseline,,190.0,400.0,True,,01:52.7,112730.0,112540.0,True,1.0,112.7,2025-03-31T03:53:05.437712,,,False,,,,,,,,,,,
02:0.1,120090.0,5764320.0,,exhale,0.0,12,exhalation,brown,700.0,500.0,True,02:0.6,02:1.3,121290.0,120590.0,True,2.0,121.3,2025-03-31T03:53:05.437712,,,False,,,,,,,,,,,
02:8.2,128160.0,6151680.0,,inhale,0.0,13,inhalation,brown,1500.0,500.0,True,02:8.7,02:10.2,130160.0,128660.0,True,1.0,130.2,2025-03-31T03:53:05.437712,,,False,,,,,,,,,,,
02:16.1,136139.0,6534719.0,,exhale,0.0,14,catch,blue,,300.0,False,02:16.4,,,136439.0,False,2.0,,2025-03-31T03:53:05.437712,,,False,,,,,,,,,,,
02:24.2,144180.0,6920640.0,,inhale,0.0,15,inhalation,blue,190.0,500.0,True,02:24.7,02:24.9,144870.0,144680.0,True,1.0,144.9,2025-03-31T03:53:05.437712,,,False,,,,,,,,,,,
02:32.2,152160.0,7303680.0,,exhale,0.0,16,exhalation,white,1000.0,200.0,True,02:32.4,02:33.4,153360.0,152360.0,True,2.0,153.4,2025-03-31T03:53:05.437712,,,False,,,,,,,,,,,
02:40.2,160229.0,7691039.0,,inhale,0.0,17,baseline,,1500.0,300.0,True,,02:42.0,162029.0,160529.0,True,1.0,162.0,2025-03-31T03:53:05.437712,,,False,,,,,,,,,,,
02:48.2,168210.0,8074080.0,,exhale,0.0,18,catch,pink,,300.0,False,02:48.5,,,168510.0,False,2.0,,2025-03-31T03:53:05.437712,,,False,,,,,,,,,,,
02:56.2,176250.0,8460000.0,,inhale,0.0,19,inhalation,white,1000.0,300.0,True,02:56.5,02:57.5,177550.0,176550.0,True,1.0,177.5,2025-03-31T03:53:05.437712,,,False,,,,,,,,,,,
03:4.2,184230.0,8843040.0,,exhale,0.0,20,exhalation,white,400.0,300.0,True,03:4.5,03:4.9,184930.0,184530.0,True,2.0,184.9,2025-03-31T03:53:05.437712,,,False,,,,,,,,,,,
03:12.3,192300.0,9230400.0,,inhale,0.0,21,inhalation,brown,1000.0,300.0,True,03:12.6,03:13.6,193600.0,192600.0,True,1.0,193.6,2025-03-31T03:53:05.437712,,,False,,,,,,,,,,,
03:20.2,200250.0,9612000.0,,exhale,0.0,22,exhalation,white,1500.0,100.0,True,03:20.4,03:21.9,201850.0,200350.0,True,2.0,201.9,2025-03-31T03:53:05.437712,,,False,,,,,,,,,,,
03:28.3,208350.0,10000800.0,,inhale,0.0,23,inhalation,brown,190.0,100.0,True,03:28.4,03:28.6,208640.0,208450.0,True,1.0,208.6,2025-03-31T03:53:05.437712,,,False,,,,,,,,,,,
03:36.3,216300.0,10382400.0,,exhale,0.0,24,exhalation,blue,1000.0,300.0,True,03:36.6,03:37.6,217600.0,216600.0,True,2.0,217.6,2025-03-31T03:53:05.437712,,,False,,,,,,,,,,,
03:44.4,224369.0,10769712.0,,inhale,0.0,25,inhalation,blue,1500.0,200.0,True,03:44.6,03:46.1,226069.0,224569.0,True,1.0,226.1,2025-03-31T03:53:05.437712,,,False,,,,,,,,,,,
03:52.3,232350.0,11152800.0,,exhale,0.0,26,baseline,,190.0,500.0,True,,03:53.0,233040.0,232850.0,True,2.0,233.0,2025-03-31T03:53:05.437712,,,False,,,,,,,,,,,
04:0.4,240390.0,11538720.0,,inhale,0.0,27,inhalation,blue,400.0,100.0,True,04:0.5,04:0.9,240890.0,240490.0,True,1.0,240.9,2025-03-31T03:53:05.437712,,,False,,,,,,,,,,,
04:8.4,248370.0,11921760.0,,exhale,0.0,28,exhalation,brown,1000.0,100.0,True,04:8.5,04:9.5,249470.0,248470.0,True,2.0,249.5,2025-03-31T03:53:05.437712,,,False,,,,,,,,,,,
04:16.4,256410.0,12307680.0,,inhale,0.0,29,inhalation,brown,700.0,200.0,True,04:16.6,04:17.3,257310.0,256610.0,True,1.0,257.3,2025-03-31T03:53:05.437712,0.12010980006306227,257.4201098000631,True,452,19,,,,,,,,,
04:24.4,264390.0,12690720.0,,exhale,0.0,30,baseline,,1500.0,200.0,True,,04:26.1,266090.0,264590.0,True,2.0,266.1,2025-03-31T03:53:05.437712,,,False,,,,,,,,,,,
04:32.5,272459.0,13078079.0,,inhale,0.0,31,baseline,,1500.0,300.0,True,,04:34.3,274259.0,272759.0,True,1.0,274.3,2025-03-31T03:53:05.437712,,,False,,,,,,,,,,,
04:40.4,280410.0,13459680.0,,exhale,0.0,32,baseline,,400.0,400.0,True,,04:41.2,281210.0,280810.0,True,2.0,281.2,2025-03-31T03:53:05.437712,,,False,,,,,,,,,,,
04:48.5,288510.0,13848480.0,,inhale,0.0,33,inhalation,blue,1000.0,100.0,True,04:48.6,04:49.6,289610.0,288610.0,True,1.0,289.6,2025-03-31T03:53:05.437712,,,False,,,,,,,,,,,
04:56.5,296459.0,14230079.0,,exhale,0.0,34,exhalation,blue,700.0,100.0,True,04:56.6,04:57.3,297259.0,296559.0,True,2.0,297.3,2025-03-31T03:53:05.437712,,,False,,,,,,,,,,,
05:4.5,304500.0,14616000.0,,inhale,0.0,35,inhalation,pink,1000.0,200.0,True,05:4.7,05:5.7,305700.0,304700.0,True,1.0,305.7,2025-03-31T03:53:05.437712,,,False,,,,,,,,,,,
05:12.5,312480.0,14999040.0,,exhale,0.0,36,exhalation,pink,190.0,100.0,True,05:12.6,05:12.8,312770.0,312580.0,True,2.0,312.8,2025-03-31T03:53:05.437712,,,False,,,,,,,,,,,
05:19.6,319570.0,15339407.0,,inhale,0.0,37,inhalation,pink,1500.0,500.0,True,05:20.1,05:21.6,321570.0,320070.0,True,1.0,321.6,2025-03-31T03:53:05.437712,,,False,,,,,,,,,,,
05:20.6,320550.0,15386400.0,,inhale,0.0,38,inhalation,pink,1500.0,500.0,True,05:21.1,05:22.6,322550.0,321050.0,True,1.0,322.6,2025-03-31T03:53:05.437712,,,False,,,,,,,,,,,
05:27.5,327520.0,15721007.0,,exhale,0.0,39,exhalation,pink,400.0,200.0,True,05:27.7,05:28.1,328120.0,327720.0,True,2.0,328.1,2025-03-31T03:53:05.437712,,,False,,,,,,,,,,,
05:28.5,328529.0,15769439.0,,exhale,0.0,40,exhalation,blue,400.0,200.0,True,05:28.7,05:29.1,329129.0,328729.0,True,2.0,329.1,2025-03-31T03:53:05.437712,,,False,,,,,,,,,,,
05:35.6,335589.0,16108319.0,,inhale,0.0,41,inhalation,brown,1500.0,200.0,True,05:35.8,05:37.3,337289.0,335789.0,True,1.0,337.3,2025-03-31T03:53:05.437712,,,False,,,,,,,,,,,
05:43.6,343570.0,16491407.0,,exhale,0.0,42,exhalation,white,700.0,500.0,True,05:44.1,05:44.8,344770.0,344070.0,True,2.0,344.8,2025-03-31T03:53:05.437712,,,False,,,,,,,,,,,
05:51.6,351641.0,16878768.0,,inhale,0.0,43,inhalation,white,190.0,500.0,True,05:52.1,05:52.3,352331.0,352141.0,True,1.0,352.3,2025-03-31T03:53:05.437712,,,False,,,,,,,,,,,
05:59.6,359591.0,17260368.0,,exhale,0.0,44,exhalation,blue,700.0,400.0,True,05:60.0,06:0.7,360691.0,359991.0,True,2.0,360.7,2025-03-31T03:53:05.437712,,,False,,,,,,,,,,,
06:7.7,367661.0,17647728.0,,inhale,0.0,45,baseline,,1500.0,100.0,True,,06:9.3,369261.0,367761.0,True,1.0,369.3,2025-03-31T03:53:05.437712,,,False,,,,,,,,,,,
06:15.6,375641.0,18030768.0,,exhale,0.0,46,baseline,,1000.0,500.0,True,,06:17.1,377141.0,376141.0,True,2.0,377.1,2025-03-31T03:53:05.437712,,,False,,,,,,,,,,,
06:23.7,383711.0,18418128.0,,inhale,0.0,47,inhalation,brown,190.0,100.0,True,06:23.8,06:24.0,384001.0,383811.0,True,1.0,384.0,2025-03-31T03:53:05.437712,,,False,,,,,,,,,,,
06:31.7,391661.0,18799728.0,,exhale,0.0,48,baseline,,400.0,200.0,True,,06:32.3,392261.0,391861.0,True,2.0,392.3,2025-03-31T03:53:05.437712,,,False,,,,,,,,,,,
06:39.7,399731.0,19187088.0,,inhale,0.0,49,inhalation,brown,190.0,500.0,True,06:40.2,06:40.4,400421.0,400231.0,True,1.0,400.4,2025-03-31T03:53:05.437712,,,False,,,,,,,,,,,
06:47.7,407711.0,19570128.0,,exhale,0.0,50,catch,white,,300.0,False,06:48.0,,,408011.0,False,2.0,,2025-03-31T03:53:05.437712,,,False,,,,,,,,,,,
06:55.8,415751.0,19956048.0,,inhale,0.0,51,inhalation,brown,700.0,400.0,True,06:56.2,06:56.9,416851.0,416151.0,True,1.0,416.9,2025-03-31T03:53:05.437712,,,False,,,,,,,,,,,
07:3.7,423731.0,20339088.0,,exhale,0.0,52,baseline,,700.0,200.0,True,,07:4.6,424631.0,423931.0,True,2.0,424.6,2025-03-31T03:53:05.437712,,,False,,,,,,,,,,,
07:11.8,431801.0,20726448.0,,inhale,0.0,53,catch,pink,,200.0,False,07:12.0,,,432001.0,False,1.0,,2025-03-31T03:53:05.437712,,,False,,,,,,,,,,,
07:19.8,439781.0,21109488.0,,exhale,0.0,54,exhalation,brown,190.0,500.0,True,07:20.3,07:20.5,440471.0,440281.0,True,2.0,440.5,2025-03-31T03:53:05.437712,,,False,,,,,,,,,,,
07:27.8,447821.0,21495408.0,,inhale,0.0,55,inhalation,pink,190.0,500.0,True,07:28.3,07:28.5,448511.0,448321.0,True,1.0,448.5,2025-03-31T03:53:05.437712,,,False,,,,,,,,,,,
07:35.8,455801.0,21878448.0,,exhale,0.0,56,baseline,,400.0,400.0,True,,07:36.6,456601.0,456201.0,True,2.0,456.6,2025-03-31T03:53:05.437712,,,False,,,,,,,,,,,
07:43.9,463871.0,22265808.0,,inhale,0.0,57,inhalation,blue,400.0,100.0,True,07:44.0,07:44.4,464371.0,463971.0,True,1.0,464.4,2025-03-31T03:53:05.437712,,,False,,,,,,,,,,,
07:51.8,471821.0,22647408.0,,exhale,0.0,58,exhalation,brown,400.0,500.0,True,07:52.3,07:52.7,472721.0,472321.0,True,2.0,472.7,2025-03-31T03:53:05.437712,,,False,,,,,,,,,,,
07:59.9,479921.0,23036208.0,,inhale,0.0,59,inhalation,pink,190.0,200.0,True,08:0.1,08:0.3,480311.0,480121.0,True,1.0,480.3,2025-03-31T03:53:05.437712,,,False,,,,,,,,,,,
08:7.9,487871.0,23417808.0,,exhale,0.0,60,exhalation,blue,190.0,100.0,True,08:8.0,08:8.2,488161.0,487971.0,True,2.0,488.2,2025-03-31T03:53:05.437712,,,False,,,,,,,,,,,
08:15.9,495940.0,23805120.0,,inhale,0.0,61,inhalation,pink,700.0,200.0,True,08:16.1,08:16.8,496840.0,496140.0,True,1.0,496.8,2025-03-31T03:53:05.437712,,,False,,,,,,,,,,,
08:23.9,503921.0,24188208.0,,exhale,0.0,62,baseline,,1500.0,100.0,True,,08:25.5,505521.0,504021.0,True,2.0,505.5,2025-03-31T03:53:05.437712,,,False,,,,,,,,,,,
08:32.0,511961.0,24574128.0,,inhale,0.0,63,inhalation,white,190.0,200.0,True,08:32.2,08:32.4,512351.0,512161.0,True,1.0,512.4,2025-03-31T03:53:05.437712,,,False,,,,,,,,,,,
08:39.9,519941.0,24957168.0,,exhale,0.0,64,baseline,,400.0,400.0,True,,08:40.7,520741.0,520341.0,True,2.0,520.7,2025-03-31T03:53:05.437712,,,False,,,,,,,,,,,
08:48.0,527981.0,25343088.0,,inhale,0.0,65,inhalation,pink,190.0,100.0,True,08:48.1,08:48.3,528271.0,528081.0,True,1.0,528.3,2025-03-31T03:53:05.437712,,,False,,,,,,,,,,,
08:56.0,535961.0,25726128.0,,exhale,0.0,66,exhalation,blue,1500.0,200.0,True,08:56.2,08:57.7,537661.0,536161.0,True,2.0,537.7,2025-03-31T03:53:05.437712,,,False,,,,,,,,,,,
09:4.0,544030.0,26113487.0,,inhale,0.0,67,baseline,,190.0,200.0,True,,09:4.4,544420.0,544230.0,True,1.0,544.4,2025-03-31T03:53:05.437712,,,False,,,,,,,,,,,
09:12.0,551981.0,26495088.0,,exhale,0.0,68,exhalation,white,190.0,300.0,True,09:12.3,09:12.5,552471.0,552281.0,True,2.0,552.5,2025-03-31T03:53:05.437712,,,False,,,,,,,,,,,
09:20.1,560081.0,26883888.0,,inhale,0.0,69,inhalation,pink,400.0,200.0,True,09:20.3,09:20.7,560681.0,560281.0,True,1.0,560.7,2025-03-31T03:53:05.437712,,,False,,,,,,,,,,,
09:28.0,568030.0,27265487.0,,exhale,0.0,70,exhalation,blue,400.0,100.0,True,09:28.1,09:28.5,568530.0,568130.0,True,2.0,568.5,2025-03-31T03:53:05.437712,,,False,,,,,,,,,,,
09:36.1,576070.0,27651407.0,,inhale,0.0,71,baseline,,190.0,400.0,True,,09:36.7,576660.0,576470.0,True,1.0,576.7,2025-03-31T03:53:05.437712,,,False,,,,,,,,,,,
09:44.1,584050.0,28034447.0,,exhale,0.0,72,baseline,,700.0,100.0,True,,09:44.9,584850.0,584150.0,True,2.0,584.9,2025-03-31T03:53:05.437712,,,False,,,,,,,,,,,
09:45.1,585051.0,28082448.0,,inhale,0.0,73,inhalation,brown,400.0,500.0,True,09:45.6,09:46.0,585951.0,585551.0,True,1.0,586.0,2025-03-31T03:53:05.437712,,,False,,,,,,,,,,,
09:53.0,593001.0,28464048.0,,exhale,0.0,74,exhalation,white,700.0,200.0,True,09:53.2,09:53.9,593901.0,593201.0,True,2.0,593.9,2025-03-31T03:53:05.437712,,,False,,,,,,,,,,,
10:1.1,601070.0,28851360.0,,inhale,0.0,75,baseline,,700.0,400.0,True,,10:2.2,602170.0,601470.0,True,1.0,602.2,2025-03-31T03:53:05.437712,,,False,,,,,,,,,,,
10:9.1,609051.0,29234448.0,,exhale,0.0,76,catch,brown,,500.0,False,10:9.6,,,609551.0,False,2.0,,2025-03-31T03:53:05.437712,,,False,,,,,,,,,,,
10:17.1,617121.0,29621808.0,,inhale,0.0,77,inhalation,white,700.0,100.0,True,10:17.2,10:17.9,617921.0,617221.0,True,1.0,617.9,2025-03-31T03:53:05.437712,,,False,,,,,,,,,,,
10:25.1,625071.0,30003408.0,,exhale,0.0,78,baseline,,1000.0,300.0,True,,10:26.4,626371.0,625371.0,True,2.0,626.4,2025-03-31T03:53:05.437712,,,False,,,,,,,,,,,
10:33.1,633141.0,30390768.0,,inhale,0.0,79,baseline,,1000.0,400.0,True,,10:34.5,634541.0,633541.0,True,1.0,634.5,2025-03-31T03:53:05.437712,,,False,,,,,,,,,,,
10:41.1,641121.0,30773808.0,,exhale,0.0,80,baseline,,400.0,100.0,True,,10:41.6,641621.0,641221.0,True,2.0,641.6,2025-03-31T03:53:05.437712,,,False,,,,,,,,,,,
10:49.2,649191.0,31161168.0,,inhale,0.0,81,inhalation,white,400.0,400.0,True,10:49.6,10:50.0,649991.0,649591.0,True,1.0,650.0,2025-03-31T03:53:05.437712,,,False,,,,,,,,,,,
10:57.1,657141.0,31542768.0,,exhale,0.0,82,baseline,,1000.0,200.0,True,,10:58.3,658341.0,657341.0,True,2.0,658.3,2025-03-31T03:53:05.437712,,,False,,,,,,,,,,,
11:5.2,665211.0,31930128.0,,inhale,0.0,83,inhalation,white,1000.0,300.0,True,11:5.5,11:6.5,666511.0,665511.0,True,1.0,666.5,2025-03-31T03:53:05.437712,,,False,,,,,,,,,,,
11:13.2,673191.0,32313168.0,,exhale,0.0,84,baseline,,190.0,200.0,True,,11:13.6,673581.0,673391.0,True,2.0,673.6,2025-03-31T03:53:05.437712,,,False,,,,,,,,,,,
11:21.2,681231.0,32699088.0,,inhale,0.0,85,inhalation,brown,400.0,400.0,True,11:21.6,11:22.0,682031.0,681631.0,True,1.0,682.0,2025-03-31T03:53:05.437712,,,False,,,,,,,,,,,
11:29.2,689211.0,33082128.0,,exhale,0.0,86,exhalation,brown,1500.0,500.0,True,11:29.7,11:31.2,691211.0,689711.0,True,2.0,691.2,2025-03-31T03:53:05.437712,,,False,,,,,,,,,,,
11:37.3,697280.0,33469487.0,,inhale,0.0,87,baseline,,700.0,500.0,True,,11:38.5,698480.0,697780.0,True,1.0,698.5,2025-03-31T03:53:05.437712,,,False,,,,,,,,,,,
11:45.3,705261.0,33852528.0,,exhale,0.0,88,exhalation,white,190.0,400.0,True,11:45.7,11:45.9,705851.0,705661.0,True,2.0,705.9,2025-03-31T03:53:05.437712,,,False,,,,,,,,,,,
11:53.3,713301.0,34238448.0,,inhale,0.0,89,inhalation,brown,400.0,100.0,True,11:53.4,11:53.8,713801.0,713401.0,True,1.0,713.8,2025-03-31T03:53:05.437712,,,False,,,,,,,,,,,
12:1.3,721281.0,34621488.0,,exhale,0.0,90,exhalation,white,1000.0,500.0,True,12:1.8,12:2.8,722781.0,721781.0,True,2.0,722.8,2025-03-31T03:53:05.437712,,,False,,,,,,,,,,,
12:9.4,729351.0,35008848.0,,inhale,0.0,91,inhalation,blue,1000.0,500.0,True,12:9.9,12:10.9,730851.0,729851.0,True,1.0,730.9,2025-03-31T03:53:05.437712,,,False,,,,,,,,,,,
12:17.3,737301.0,35390448.0,,exhale,0.0,92,exhalation,white,1500.0,400.0,True,12:17.7,12:19.2,739201.0,737701.0,True,2.0,739.2,2025-03-31T03:53:05.437712,,,False,,,,,,,,,,,
12:25.4,745401.0,35779248.0,,inhale,0.0,93,catch,brown,,100.0,False,12:25.5,,,745501.0,False,1.0,,2025-03-31T03:53:05.437712,,,False,,,,,,,,,,,
12:33.4,753351.0,36160848.0,,exhale,0.0,94,exhalation,blue,1500.0,400.0,True,12:33.8,12:35.3,755251.0,753751.0,True,2.0,755.3,2025-03-31T03:53:05.437712,,,False,,,,,,,,,,,
12:41.4,761420.0,36548160.0,,inhale,0.0,95,baseline,,1500.0,200.0,True,,12:43.1,763120.0,761620.0,True,1.0,763.1,2025-03-31T03:53:05.437712,,,False,,,,,,,,,,,
12:49.4,769401.0,36931248.0,,exhale,0.0,96,exhalation,blue,700.0,200.0,True,12:49.6,12:50.3,770301.0,769601.0,True,2.0,770.3,2025-03-31T03:53:05.437712,,,False,,,,,,,,,,,
12:57.4,777441.0,37317168.0,,inhale,0.0,97,inhalation,pink,700.0,400.0,True,12:57.8,12:58.5,778541.0,777841.0,True,1.0,778.5,2025-03-31T03:53:05.437712,,,False,,,,,,,,,,,
13:5.4,785421.0,37700208.0,,exhale,0.0,98,exhalation,white,1500.0,500.0,True,13:5.9,13:7.4,787421.0,785921.0,True,2.0,787.4,2025-03-31T03:53:05.437712,,,False,,,,,,,,,,,
13:13.5,793461.0,38086128.0,,inhale,0.0,99,baseline,,400.0,100.0,True,,13:14.0,793961.0,793561.0,True,1.0,794.0,2025-03-31T03:53:05.437712,,,False,,,,,,,,,,,
13:21.4,801441.0,38469168.0,,exhale,0.0,100,baseline,,700.0,500.0,True,,13:22.6,802641.0,801941.0,True,2.0,802.6,2025-03-31T03:53:05.437712,,,False,,,,,,,,,,,
13:29.5,809511.0,38856528.0,,inhale,0.0,101,baseline,,700.0,100.0,True,,13:30.3,810311.0,809611.0,True,1.0,810.3,2025-03-31T03:53:05.437712,,,False,,,,,,,,,,,
13:37.5,817461.0,39238128.0,,exhale,0.0,102,exhalation,pink,1500.0,200.0,True,13:37.7,13:39.2,819161.0,817661.0,True,2.0,819.2,2025-03-31T03:53:05.437712,,,False,,,,,,,,,,,
13:45.6,825561.0,39626928.0,,inhale,0.0,103,baseline,,1000.0,400.0,True,,13:47.0,826961.0,825961.0,True,1.0,827.0,2025-03-31T03:53:05.437712,,,False,,,,,,,,,,,
13:53.5,833511.0,40008528.0,,exhale,0.0,104,exhalation,white,190.0,300.0,True,13:53.8,13:54.0,834001.0,833811.0,True,2.0,834.0,2025-03-31T03:53:05.437712,,,False,,,,,,,,,,,
14:1.6,841551.0,40394448.0,,inhale,0.0,105,baseline,,190.0,300.0,True,,14:2.0,842041.0,841851.0,True,1.0,842.0,2025-03-31T03:53:05.437712,,,False,,,,,,,,,,,
14:9.5,849531.0,40777488.0,,exhale,0.0,106,baseline,,1500.0,300.0,True,,14:11.3,851331.0,849831.0,True,2.0,851.3,2025-03-31T03:53:05.437712,,,False,,,,,,,,,,,
14:10.5,850531.0,40825488.0,,inhale,0.0,107,catch,brown,,500.0,False,14:11.0,,,851031.0,False,1.0,,2025-03-31T03:53:05.437712,,,False,,,,,,,,,,,
14:18.5,858481.0,41207088.0,,exhale,0.0,108,exhalation,brown,190.0,100.0,True,14:18.6,14:18.8,858771.0,858581.0,True,2.0,858.8,2025-03-31T03:53:05.437712,,,False,,,,,,,,,,,
14:26.5,866550.0,41594400.0,,inhale,0.0,109,inhalation,white,400.0,300.0,True,14:26.9,14:27.2,867250.0,866850.0,True,1.0,867.2,2025-03-31T03:53:05.437712,,,False,,,,,,,,,,,
14:34.5,874531.0,41977488.0,,exhale,0.0,110,exhalation,white,400.0,200.0,True,14:34.7,14:35.1,875131.0,874731.0,True,2.0,875.1,2025-03-31T03:53:05.437712,,,False,,,,,,,,,,,
14:42.6,882601.0,42364848.0,,inhale,0.0,111,inhalation,brown,700.0,200.0,True,14:42.8,14:43.5,883501.0,882801.0,True,1.0,883.5,2025-03-31T03:53:05.437712,,,False,,,,,,,,,,,
14:50.6,890551.0,42746448.0,,exhale,0.0,112,exhalation,pink,190.0,300.0,True,14:50.9,14:51.0,891041.0,890851.0,True,2.0,891.0,2025-03-31T03:53:05.437712,,,False,,,,,,,,,,,
14:58.6,898621.0,43133808.0,,inhale,0.0,113,baseline,,700.0,100.0,True,,14:59.4,899421.0,898721.0,True,1.0,899.4,2025-03-31T03:53:05.437712,,,False,,,,,,,,,,,
15:6.6,906601.0,43516848.0,,exhale,0.0,114,baseline,,190.0,100.0,True,,15:6.9,906891.0,906701.0,True,2.0,906.9,2025-03-31T03:53:05.437712,,,False,,,,,,,,,,,
15:14.7,914671.0,43904208.0,,inhale,0.0,115,baseline,,1000.0,300.0,True,,15:16.0,915971.0,914971.0,True,1.0,916.0,2025-03-31T03:53:05.437712,,,False,,,,,,,,,,,
15:22.6,922621.0,44285808.0,,exhale,0.0,116,catch,blue,,500.0,False,15:23.1,,,923121.0,False,2.0,,2025-03-31T03:53:05.437712,,,False,,,,,,,,,,,
15:30.7,930691.0,44673168.0,,inhale,0.0,117,baseline,,400.0,300.0,True,,15:31.4,931391.0,930991.0,True,1.0,931.4,2025-03-31T03:53:05.437712,,,False,,,,,,,,,,,
15:38.7,938671.0,45056208.0,,exhale,0.0,118,exhalation,brown,1000.0,200.0,True,15:38.9,15:39.9,939871.0,938871.0,True,2.0,939.9,2025-03-31T03:53:05.437712,,,False,,,,,,,,,,,
15:46.7,946711.0,45442128.0,,inhale,0.0,119,baseline,,1500.0,200.0,True,,15:48.4,948411.0,946911.0,True,1.0,948.4,2025-03-31T03:53:05.437712,,,False,,,,,,,,,,,
15:54.7,954691.0,45825168.0,,exhale,0.0,120,baseline,,700.0,500.0,True,,15:55.9,955891.0,955191.0,True,2.0,955.9,2025-03-31T03:53:05.437712,,,False,,,,,,,,,,,
16:2.8,962761.0,46212528.0,,inhale,0.0,121,baseline,,700.0,100.0,True,,16:3.6,963561.0,962861.0,True,1.0,963.6,2025-03-31T03:53:05.437712,,,False,,,,,,,,,,,
16:10.7,970741.0,46595568.0,,exhale,0.0,122,exhalation,brown,190.0,500.0,True,16:11.2,16:11.4,971431.0,971241.0,True,2.0,971.4,2025-03-31T03:53:05.437712,,,False,,,,,,,,,,,
16:18.8,978781.0,46981488.0,,inhale,0.0,123,inhalation,blue,700.0,300.0,True,16:19.1,16:19.8,979781.0,979081.0,True,1.0,979.8,2025-03-31T03:53:05.437712,,,False,,,,,,,,,,,
16:26.8,986761.0,47364528.0,,exhale,0.0,124,baseline,,1000.0,300.0,True,,16:28.1,988061.0,987061.0,True,2.0,988.1,2025-03-31T03:53:05.437712,,,False,,,,,,,,,,,
16:34.8,994831.0,47751888.0,,inhale,0.0,125,inhalation,pink,1000.0,300.0,True,16:35.1,16:36.1,996131.0,995131.0,True,1.0,996.1,2025-03-31T03:53:05.437712,,,False,,,,,,,,,,,
16:42.8,1002781.0,48133488.0,,exhale,0.0,126,exhalation,pink,400.0,400.0,True,16:43.2,16:43.6,1003581.0,1003181.0,True,2.0,1003.6,2025-03-31T03:53:05.437712,,,False,,,,,,,,,,,
16:50.9,1010881.0,48522288.0,,inhale,0.0,127,baseline,,400.0,300.0,True,,16:51.6,1011581.0,1011181.0,True,1.0,1011.6,2025-03-31T03:53:05.437712,,,False,,,,,,,,,,,
16:58.8,1018831.0,48903888.0,,exhale,0.0,128,exhalation,brown,1000.0,100.0,True,16:58.9,16:59.9,1019931.0,1018931.0,True,2.0,1019.9,2025-03-31T03:53:05.437712,,,False,,,,,,,,,,,
17:6.9,1026900.0,49291200.0,,inhale,0.0,129,inhalation,white,1000.0,100.0,True,17:7.0,17:8.0,1028000.0,1027000.0,True,1.0,1028.0,2025-03-31T03:53:05.437712,,,False,,,,,,,,,,,
17:14.9,1034881.0,49674288.0,,exhale,0.0,130,baseline,,400.0,400.0,True,,17:15.7,1035681.0,1035281.0,True,2.0,1035.7,2025-03-31T03:53:05.437712,,,False,,,,,,,,,,,
17:22.9,1042921.0,50060208.0,,inhale,0.0,131,inhalation,white,1500.0,200.0,True,17:23.1,17:24.6,1044621.0,1043121.0,True,1.0,1044.6,2025-03-31T03:53:05.437712,,,False,,,,,,,,,,,
17:30.9,1050901.0,50443248.0,,exhale,0.0,132,exhalation,white,400.0,500.0,True,17:31.4,17:31.8,1051801.0,1051401.0,True,2.0,1051.8,2025-03-31T03:53:05.437712,,,False,,,,,,,,,,,
17:38.9,1058941.0,50829168.0,,inhale,0.0,133,inhalation,white,1500.0,400.0,True,17:39.3,17:40.8,1060841.0,1059341.0,True,1.0,1060.8,2025-03-31T03:53:05.437712,,,False,,,,,,,,,,,
17:46.9,1066921.0,51212208.0,,exhale,0.0,134,exhalation,blue,1000.0,500.0,True,17:47.4,17:48.4,1068421.0,1067421.0,True,2.0,1068.4,2025-03-31T03:53:05.437712,,,False,,,,,,,,,,,
17:55.0,1074991.0,51599568.0,,inhale,0.0,135,inhalation,blue,1500.0,300.0,True,17:55.3,17:56.8,1076791.0,1075291.0,True,1.0,1076.8,2025-03-31T03:53:05.437712,,,False,,,,,,,,,,,
18:2.9,1082941.0,51981168.0,,exhale,0.0,136,exhalation,pink,700.0,200.0,True,18:3.1,18:3.8,1083841.0,1083141.0,True,2.0,1083.8,2025-03-31T03:53:05.437712,,,False,,,,,,,,,,,
18:11.0,1091041.0,52369968.0,,inhale,0.0,137,inhalation,white,400.0,300.0,True,18:11.3,18:11.7,1091741.0,1091341.0,True,1.0,1091.7,2025-03-31T03:53:05.437712,,,False,,,,,,,,,,,
18:19.0,1098991.0,52751568.0,,exhale,0.0,138,baseline,,1000.0,200.0,True,,18:20.2,1100191.0,1099191.0,True,2.0,1100.2,2025-03-31T03:53:05.437712,,,False,,,,,,,,,,,
18:27.0,1107031.0,53137488.0,,inhale,0.0,139,baseline,,190.0,400.0,True,,18:27.6,1107621.0,1107431.0,True,1.0,1107.6,2025-03-31T03:53:05.437712,,,False,,,,,,,,,,,
18:35.0,1115011.0,53520528.0,,exhale,0.0,140,baseline,,700.0,200.0,True,,18:35.9,1115911.0,1115211.0,True,2.0,1115.9,2025-03-31T03:53:05.437712,,,False,,,,,,,,,,,
18:36.0,1116011.0,53568528.0,,inhale,0.0,141,baseline,,1500.0,500.0,True,,18:38.0,1118011.0,1116511.0,True,1.0,1118.0,2025-03-31T03:53:05.437712,,,False,,,,,,,,,,,
18:44.0,1123961.0,53950128.0,,exhale,0.0,142,exhalation,blue,190.0,300.0,True,18:44.3,18:44.5,1124451.0,1124261.0,True,2.0,1124.5,2025-03-31T03:53:05.437712,,,False,,,,,,,,,,,
18:52.0,1132030.0,54337440.0,,inhale,0.0,143,inhalation,blue,1000.0,400.0,True,18:52.4,18:53.4,1133430.0,1132430.0,True,1.0,1133.4,2025-03-31T03:53:05.437712,,,False,,,,,,,,,,,
19:0.0,1140011.0,54720528.0,,exhale,0.0,144,exhalation,pink,400.0,500.0,True,19:0.5,19:0.9,1140911.0,1140511.0,True,2.0,1140.9,2025-03-31T03:53:05.437712,,,False,,,,,,,,,,,
19:8.1,1148081.0,55107888.0,,inhale,0.0,145,inhalation,white,190.0,400.0,True,19:8.5,19:8.7,1148671.0,1148481.0,True,1.0,1148.7,2025-03-31T03:53:05.437712,,,False,,,,,,,,,,,
19:16.0,1156031.0,55489488.0,,exhale,0.0,146,exhalation,pink,1000.0,100.0,True,19:16.1,19:17.1,1157131.0,1156131.0,True,2.0,1157.1,2025-03-31T03:53:05.437712,,,False,,,,,,,,,,,
19:24.1,1164101.0,55876848.0,,inhale,0.0,147,baseline,,190.0,500.0,True,,19:24.8,1164791.0,1164601.0,True,1.0,1164.8,2025-03-31T03:53:05.437712,,,False,,,,,,,,,,,
19:32.1,1172081.0,56259888.0,,exhale,0.0,148,catch,pink,,300.0,False,19:32.4,,,1172381.0,False,2.0,,2025-03-31T03:53:05.437712,,,False,,,,,,,,,,,
19:40.2,1180151.0,56647248.0,,inhale,0.0,149,baseline,,400.0,400.0,True,,19:41.0,1180951.0,1180551.0,True,1.0,1181.0,2025-03-31T03:53:05.437712,,,False,,,,,,,,,,,
19:48.1,1188101.0,57028848.0,,exhale,0.0,150,baseline,,190.0,200.0,True,,19:48.5,1188491.0,1188301.0,True,2.0,1188.5,2025-03-31T03:53:05.437712,,,False,,,,,,,,,,,
19:56.2,1196171.0,57416208.0,,inhale,0.0,151,inhalation,white,1500.0,300.0,True,19:56.5,19:58.0,1197971.0,1196471.0,True,1.0,1198.0,2025-03-31T03:53:05.437712,,,False,,,,,,,,,,,
20:4.2,1204151.0,57799248.0,,exhale,0.0,152,baseline,,190.0,200.0,True,,20:4.5,1204541.0,1204351.0,True,2.0,1204.5,2025-03-31T03:53:05.437712,,,False,,,,,,,,,,,
20:12.2,1212191.0,58185168.0,,inhale,0.0,153,catch,blue,,400.0,False,20:12.6,,,1212591.0,False,1.0,,2025-03-31T03:53:05.437712,,,False,,,,,,,,,,,
20:20.2,1220171.0,58568208.0,,exhale,0.0,154,exhalation,blue,190.0,500.0,True,20:20.7,20:20.9,1220861.0,1220671.0,True,2.0,1220.9,2025-03-31T03:53:05.437712,,,False,,,,,,,,,,,
20:28.2,1228241.0,58955568.0,,inhale,0.0,155,inhalation,white,700.0,100.0,True,20:28.3,20:29.0,1229041.0,1228341.0,True,1.0,1229.0,2025-03-31T03:53:05.437712,,,False,,,,,,,,,,,
20:36.2,1236221.0,59338608.0,,exhale,0.0,156,exhalation,pink,1500.0,400.0,True,20:36.6,20:38.1,1238121.0,1236621.0,True,2.0,1238.1,2025-03-31T03:53:05.437712,,,False,,,,,,,,,,,
20:44.3,1244261.0,59724528.0,,inhale,0.0,157,catch,blue,,100.0,False,20:44.4,,,1244361.0,False,1.0,,2025-03-31T03:53:05.437712,,,False,,,,,,,,,,,
20:52.2,1252241.0,60107568.0,,exhale,0.0,158,exhalation,brown,700.0,300.0,True,20:52.5,20:53.2,1253241.0,1252541.0,True,2.0,1253.2,2025-03-31T03:53:05.437712,,,False,,,,,,,,,,,
21:0.3,1260311.0,60494928.0,,inhale,0.0,159,baseline,,1000.0,300.0,True,,21:1.6,1261611.0,1260611.0,True,1.0,1261.6,2025-03-31T03:53:05.437712,,,False,,,,,,,,,,,
21:8.3,1268261.0,60876528.0,,exhale,0.0,160,exhalation,blue,400.0,300.0,True,21:8.6,21:9.0,1268961.0,1268561.0,True,2.0,1269.0,2025-03-31T03:53:05.437712,,,False,,,,,,,,,,,
21:16.4,1276361.0,61265328.0,,inhale,0.0,161,inhalation,brown,1000.0,400.0,True,21:16.8,21:17.8,1277761.0,1276761.0,True,1.0,1277.8,2025-03-31T03:53:05.437712,,,False,,,,,,,,,,,
21:24.3,1284311.0,61646928.0,,exhale,0.0,162,exhalation,white,700.0,500.0,True,21:24.8,21:25.5,1285511.0,1284811.0,True,2.0,1285.5,2025-03-31T03:53:05.437712,,,False,,,,,,,,,,,
21:32.4,1292380.0,62034240.0,,inhale,0.0,163,inhalation,brown,1000.0,100.0,True,21:32.5,21:33.5,1293480.0,1292480.0,True,1.0,1293.5,2025-03-31T03:53:05.437712,,,False,,,,,,,,,,,
21:40.4,1300361.0,62417328.0,,exhale,0.0,164,exhalation,blue,1000.0,100.0,True,21:40.5,21:41.5,1301461.0,1300461.0,True,2.0,1301.5,2025-03-31T03:53:05.437712,,,False,,,,,,,,,,,
21:48.4,1308401.0,62803248.0,,inhale,0.0,165,catch,pink,,500.0,False,21:48.9,,,1308901.0,False,1.0,,2025-03-31T03:53:05.437712,,,False,,,,,,,,,,,
21:56.4,1316381.0,63186288.0,,exhale,0.0,166,exhalation,pink,190.0,500.0,True,21:56.9,21:57.1,1317071.0,1316881.0,True,2.0,1317.1,2025-03-31T03:53:05.437712,,,False,,,,,,,,,,,
22:4.4,1324421.0,63572208.0,,inhale,0.0,167,inhalation,blue,700.0,300.0,True,22:4.7,22:5.4,1325421.0,1324721.0,True,1.0,1325.4,2025-03-31T03:53:05.437712,,,False,,,,,,,,,,,
22:12.4,1332401.0,63955248.0,,exhale,0.0,168,baseline,,1500.0,300.0,True,,22:14.2,1334201.0,1332701.0,True,2.0,1334.2,2025-03-31T03:53:05.437712,,,False,,,,,,,,,,,
22:20.5,1340471.0,64342608.0,,inhale,0.0,169,inhalation,brown,1500.0,500.0,True,22:21.0,22:22.5,1342471.0,1340971.0,True,1.0,1342.5,2025-03-31T03:53:05.437712,,,False,,,,,,,,,,,
22:28.4,1348421.0,64724208.0,,exhale,0.0,170,exhalation,pink,1500.0,400.0,True,22:28.8,22:30.3,1350321.0,1348821.0,True,2.0,1350.3,2025-03-31T03:53:05.437712,,,False,,,,,,,,,,,
22:36.5,1356521.0,65113008.0,,inhale,0.0,171,inhalation,pink,1000.0,200.0,True,22:36.7,22:37.7,1357721.0,1356721.0,True,1.0,1357.7,2025-03-31T03:53:05.437712,,,False,,,,,,,,,,,
22:44.5,1364471.0,65494608.0,,exhale,0.0,172,exhalation,pink,700.0,400.0,True,22:44.9,22:45.6,1365571.0,1364871.0,True,2.0,1365.6,2025-03-31T03:53:05.437712,,,False,,,,,,,,,,,
22:52.5,1372511.0,65880528.0,,inhale,0.0,173,inhalation,pink,1500.0,400.0,True,22:52.9,22:54.4,1374411.0,1372911.0,True,1.0,1374.4,2025-03-31T03:53:05.437712,,,False,,,,,,,,,,,
23:0.5,1380491.0,66263568.0,,exhale,0.0,174,exhalation,brown,700.0,500.0,True,23:1.0,23:1.7,1381691.0,1380991.0,True,2.0,1381.7,2025-03-31T03:53:05.437712,,,False,,,,,,,,,,,
23:1.5,1381491.0,66311568.0,,inhale,0.0,175,inhalation,pink,400.0,300.0,True,23:1.8,23:2.2,1382191.0,1381791.0,True,1.0,1382.2,2025-03-31T03:53:05.437712,,,False,,,,,,,,,,,
23:9.4,1389441.0,66693168.0,,exhale,0.0,176,catch,white,,100.0,False,23:9.5,,,1389541.0,False,2.0,,2025-03-31T03:53:05.437712,,,False,,,,,,,,,,,
23:17.5,1397510.0,67080480.0,,inhale,0.0,177,baseline,,700.0,100.0,True,,23:18.3,1398310.0,1397610.0,True,1.0,1398.3,2025-03-31T03:53:05.437712,,,False,,,,,,,,,,,
23:25.5,1405491.0,67463568.0,,exhale,0.0,178,baseline,,1000.0,500.0,True,,23:27.0,1406991.0,1405991.0,True,2.0,1407.0,2025-03-31T03:53:05.437712,,,False,,,,,,,,,,,
23:33.6,1413561.0,67850928.0,,inhale,0.0,179,inhalation,blue,400.0,300.0,True,23:33.9,23:34.3,1414261.0,1413861.0,True,1.0,1414.3,2025-03-31T03:53:05.437712,,,False,,,,,,,,,,,
23:41.5,1421511.0,68232528.0,,exhale,0.0,180,baseline,,400.0,500.0,True,,23:42.4,1422411.0,1422011.0,True,2.0,1422.4,2025-03-31T03:53:05.437712,,,False,,,,,,,,,,,
23:49.6,1429581.0,68619888.0,,inhale,0.0,181,inhalation,blue,1500.0,500.0,True,23:50.1,23:51.6,1431581.0,1430081.0,True,1.0,1431.6,2025-03-31T03:53:05.437712,,,False,,,,,,,,,,,
23:57.6,1437561.0,69002928.0,,exhale,0.0,182,exhalation,brown,1500.0,100.0,True,23:57.7,23:59.2,1439161.0,1437661.0,True,2.0,1439.2,2025-03-31T03:53:05.437712,,,False,,,,,,,,,,,
24:5.6,1445631.0,69390288.0,,inhale,0.0,183,inhalation,white,700.0,300.0,True,24:5.9,24:6.6,1446631.0,1445931.0,True,1.0,1446.6,2025-03-31T03:53:05.437712,,,False,,,,,,,,,,,
24:13.6,1453581.0,69771888.0,,exhale,0.0,184,exhalation,blue,1500.0,300.0,True,24:13.9,24:15.4,1455381.0,1453881.0,True,2.0,1455.4,2025-03-31T03:53:05.437712,,,False,,,,,,,,,,,
24:21.7,1461651.0,70159248.0,,inhale,0.0,185,catch,brown,,200.0,False,24:21.9,,,1461851.0,False,1.0,,2025-03-31T03:53:05.437712,,,False,,,,,,,,,,,
24:29.6,1469631.0,70542288.0,,exhale,0.0,186,baseline,,400.0,200.0,True,,24:30.2,1470231.0,1469831.0,True,2.0,1470.2,2025-03-31T03:53:05.437712,,,False,,,,,,,,,,,
24:37.7,1477671.0,70928208.0,,inhale,0.0,187,inhalation,pink,700.0,100.0,True,24:37.8,24:38.5,1478471.0,1477771.0,True,1.0,1478.5,2025-03-31T03:53:05.437712,,,False,,,,,,,,,,,
24:45.7,1485651.0,71311248.0,,exhale,0.0,188,baseline,,1000.0,200.0,True,,24:46.9,1486851.0,1485851.0,True,2.0,1486.9,2025-03-31T03:53:05.437712,,,False,,,,,,,,,,,
24:53.7,1493721.0,71698608.0,,inhale,0.0,189,catch,white,,300.0,False,24:54.0,,,1494021.0,False,1.0,,2025-03-31T03:53:05.437712,,,False,,,,,,,,,,,
25:1.7,1501701.0,72081648.0,,exhale,0.0,190,exhalation,pink,1000.0,100.0,True,25:1.8,25:2.8,1502801.0,1501801.0,True,2.0,1502.8,2025-03-31T03:53:05.437712,,,False,,,,,,,,,,,
25:9.7,1509741.0,72467568.0,,inhale,0.0,191,inhalation,blue,190.0,100.0,True,25:9.8,25:10.0,1510031.0,1509841.0,True,1.0,1510.0,2025-03-31T03:53:05.437712,,,False,,,,,,,,,,,
25:17.7,1517721.0,72850608.0,,exhale,0.0,192,exhalation,brown,1500.0,400.0,True,25:18.1,25:19.6,1519621.0,1518121.0,True,2.0,1519.6,2025-03-31T03:53:05.437712,,,False,,,,,,,,,,,
25:25.8,1525791.0,73237968.0,,inhale,0.0,193,baseline,,190.0,400.0,True,,25:26.4,1526381.0,1526191.0,True,1.0,1526.4,2025-03-31T03:53:05.437712,,,False,,,,,,,,,,,
25:33.7,1533741.0,73619568.0,,exhale,0.0,194,exhalation,pink,1000.0,200.0,True,25:33.9,25:34.9,1534941.0,1533941.0,True,2.0,1534.9,2025-03-31T03:53:05.437712,,,False,,,,,,,,,,,
25:41.8,1541841.0,74008368.0,,inhale,0.0,195,baseline,,1500.0,200.0,True,,25:43.5,1543541.0,1542041.0,True,1.0,1543.5,2025-03-31T03:53:05.437712,,,False,,,,,,,,,,,
25:49.8,1549791.0,74389968.0,,exhale,0.0,196,catch,white,,500.0,False,25:50.3,,,1550291.0,False,2.0,,2025-03-31T03:53:05.437712,,,False,,,,,,,,,,,
25:57.9,1557860.0,74777280.0,,inhale,0.0,197,inhalation,blue,700.0,100.0,True,25:58.0,25:58.7,1558660.0,1557960.0,True,1.0,1558.7,2025-03-31T03:53:05.437712,,,False,,,,,,,,,,,
26:5.8,1565841.0,75160368.0,,exhale,0.0,198,exhalation,brown,400.0,500.0,True,26:6.3,26:6.7,1566741.0,1566341.0,True,2.0,1566.7,2025-03-31T03:53:05.437712,,,False,,,,,,,,,,,
26:13.9,1573881.0,75546288.0,,inhale,0.0,199,inhalation,blue,190.0,200.0,True,26:14.1,26:14.3,1574271.0,1574081.0,True,1.0,1574.3,2025-03-31T03:53:05.437712,,,False,,,,,,,,,,,
26:21.9,1581861.0,75929328.0,,exhale,0.0,200,catch,brown,,500.0,False,26:22.4,,,1582361.0,False,2.0,,2025-03-31T03:53:05.437712,,,False,,,,,,,,,,,
26:29.9,1589901.0,76315248.0,,inhale,0.0,201,inhalation,pink,400.0,100.0,True,26:30.0,26:30.4,1590401.0,1590001.0,True,1.0,1590.4,2025-03-31T03:53:05.437712,,,False,,,,,,,,,,,
26:37.9,1597881.0,76698288.0,,exhale,0.0,202,baseline,,700.0,500.0,True,,26:39.1,1599081.0,1598381.0,True,2.0,1599.1,2025-03-31T03:53:05.437712,,,False,,,,,,,,,,,
26:46.0,1605951.0,77085648.0,,inhale,0.0,203,baseline,,1500.0,500.0,True,,26:48.0,1607951.0,1606451.0,True,1.0,1608.0,2025-03-31T03:53:05.437712,,,False,,,,,,,,,,,
26:53.9,1613901.0,77467248.0,,exhale,0.0,204,exhalation,white,1000.0,500.0,True,26:54.4,26:55.4,1615401.0,1614401.0,True,2.0,1615.4,2025-03-31T03:53:05.437712,,,False,,,,,,,,,,,
27:2.0,1622001.0,77856048.0,,inhale,0.0,205,catch,blue,,100.0,False,27:2.1,,,1622101.0,False,1.0,,2025-03-31T03:53:05.437712,,,False,,,,,,,,,,,
27:10.0,1629951.0,78237648.0,,exhale,0.0,206,exhalation,brown,400.0,500.0,True,27:10.5,27:10.9,1630851.0,1630451.0,True,2.0,1630.9,2025-03-31T03:53:05.437712,,,False,,,,,,,,,,,
,,,,,,0,summary,,,,,,,,,,,,2025-03-31T03:53:05.437712,,,,,,2025-03-31T03:57:53.335366,0.010638297872340425,2.0,0.0,0.0,0.5811398000456336,0.5811398000456336,0.12010980006306227,1.042169800028205
